{
  "resourceType": "Bundle",
  "type": "transaction",
  "entry": [
    {
      "request": {
        "method": "PUT",
        "url": "Patient/example-001"
      },
      "resource": {
        "resourceType": "Patient",
        "id": "example-001",
        "identifier": [
          {
            "system": "http://fhir.health.go.ug/nationalId",
            "value": "UG12345678"
          }
        ],
        "name": [
          {
            "family": "Doe",
            "given": ["Jane"]
          }
        ],
        "gender": "female",
        "birthDate": "1990-01-01",
        "telecom": [
          {
            "system": "phone",
            "value": "+256781234567",
            "use": "home"
          }
        ],
        "address": [
          {
            "line": ["Plot 1 Main Street"],
            "city": "Kampala",
            "postalCode": "256",
            "extension": [
              {
                "url": "http://fhir.health.go.ug/ext/address",
                "extension": [
                  {
                    "url": "http://fhir.health.go.ug/ext/address#subcounty",
                    "valueString": "Central Division"
                  },
                  {
                    "url": "http://fhir.health.go.ug/ext/address#parish",
                    "valueString": "Nakasero"
                  },
                  {
                    "url": "http://fhir.health.go.ug/ext/address#village",
                    "valueString": "Kisenyi"
                  }
                ]
              }
            ]
          }
        ],
        "managingOrganization": {
          "reference": "Organization/BrtC10sqp45",
          "display": "Kawempe National Referral Hospital"
        }
      }
    },
    {
      "request": {
        "method": "PUT",
        "url": "Encounter/example-encounter-001"
      },
      "resource": {
        "resourceType": "Encounter",
        "id": "example-encounter-001",
        "status": "finished",
        "type": [
          {
            "text": "Outpatient"
          }
        ],
        "subject": {
          "reference": "Patient/example-001"
        },
        "period": {
          "start": "2024-05-01T10:00:00Z",
          "end": "2024-05-01T10:30:00Z"
        },
        "participant": [
          {
            "individual": {
              "reference": "Practitioner/10"
            }
          }
        ],
        "location": [
          {
            "location": {
              "reference": "Location/location-001",
              "display": "HIV Testing Room"
            },
            "status": "active"
          }
        ],
        "serviceProvider": {
          "reference": "Organization/BrtC10sqp45",
          "display": "Kawempe National Referral Hospital"
        }
      }
    },
    {
      "request": {
        "method": "POST",
        "url": "Observation"
      },
      "resource": {
        "resourceType": "Observation",
        "status": "final",
        "category": [
          {
            "coding": [
              {
                "system": "http://terminology.hl7.org/CodeSystem/observation-category",
                "code": "laboratory"
              }
            ]
          }
        ],
        "code": {
          "coding": [
            {
              "system": "http://loinc.org",
              "code": "12345-6",
              "display": "HIV Lab Test"
            }
          ]
        },
        "subject": {
          "reference": "Patient/example-001"
        },
        "encounter": {
          "reference": "Encounter/example-encounter-001"
        },
        "effectiveDateTime": "2024-05-01T10:15:00Z",
        "valueString": "Negative",
        "interpretation": [
          {
            "coding": [
              {
                "system": "http://terminology.hl7.org/CodeSystem/v3-ObservationInterpretation",
                "code": "NEG",
                "display": "Negative"
              }
            ]
          }
        ],
        "note": [
          {
            "text": "Test performed at KCCA HIV Testing Unit."
          }
        ]
      }
    }
  ]
}